File: cycleData/battery_data_Processed.csv
Time,BatteryVoltage (mV),BatteryVoltage (V),BatteryCurrent (mA),BatteryCurrent (A),Temperature (C),RemainingCapacity (mAh),RemainingCapacity (Ah),FullCapacity (mAh),TimeToEmpty (min),TimeToEmpty (hrs),TimeToFull (min),TimeToFull (hrs),SOC (%),SOH (%)
14:34:17,15475,15.475,0,0.0,26.65,0,0.0,5119,65535,1092.25,65535,1092.25,0,84
14:34:41,16270,16.27,1668,1.668,27.15,0,0.0,5113,65535,1092.25,317,5.28333,0,84
14:35:06,16440,16.44,1675,1.675,28.45,0,0.0,5113,65535,1092.25,262,4.36667,0,84
14:35:30,16580,16.58,1680,1.68,29.75,0,0.0,5113,65535,1092.25,254,4.23333,0,84
14:35:54,16695,16.695,1679,1.679,30.85,0,0.0,5113,65535,1092.25,252,4.2,0,84
14:36:18,16795,16.795,1670,1.67,31.65,0,0.0,5113,65535,1092.25,252,4.2,0,84
14:36:42,16885,16.885,1660,1.66,32.55,0,0.0,5113,65535,1092.25,252,4.2,0,84
14:37:06,16960,16.96,1653,1.653,33.35,0,0.0,5113,65535,1092.25,253,4.21667,0,84
14:37:31,17030,17.03,1645,1.645,33.95,0,0.0,5113,65535,1092.25,253,4.21667,0,84
14:37:55,17100,17.1,1642,1.642,34.45,0,0.0,5113,65535,1092.25,253,4.21667,0,84
14:38:19,17160,17.16,1634,1.634,34.75,0,0.0,5113,65535,1092.25,254,4.23333,0,84
14:38:43,17220,17.22,1630,1.63,35.25,0,0.0,5113,65535,1092.25,254,4.23333,0,84
14:39:07,17275,17.275,1624,1.624,35.55,0,0.0,5113,65535,1092.25,254,4.23333,0,84
14:39:31,17325,17.325,1617,1.617,35.85,0,0.0,5113,65535,1092.25,254,4.23333,0,84
14:39:55,17370,17.37,1615,1.615,36.15,0,0.0,5113,65535,1092.25,254,4.23333,0,84
14:40:20,17410,17.41,1610,1.61,36.35,0,0.0,5113,65535,1092.25,254,4.23333,0,84
14:40:44,17440,17.44,1608,1.608,36.55,0,0.0,5113,65535,1092.25,254,4.23333,0,84
14:41:08,17460,17.46,1606,1.606,36.75,0,0.0,5113,65535,1092.25,254,4.23333,0,84
14:41:32,17475,17.475,1606,1.606,36.95,0,0.0,5113,65535,1092.25,254,4.23333,0,84
14:41:56,17485,17.485,1603,1.603,37.05,0,0.0,5113,65535,1092.25,254,4.23333,0,84
14:42:20,17495,17.495,1603,1.603,37.15,0,0.0,5113,65535,1092.25,253,4.21667,0,84
14:42:45,17500,17.5,1602,1.602,37.25,0,0.0,5113,65535,1092.25,253,4.21667,0,84
14:43:09,17510,17.51,1601,1.601,37.35,0,0.0,5113,65535,1092.25,253,4.21667,0,84
14:43:33,17515,17.515,1602,1.602,37.55,0,0.0,5113,65535,1092.25,252,4.2,0,84
14:43:57,17525,17.525,1600,1.6,37.65,2,0.002,5113,65535,1092.25,252,4.2,1,84
14:44:21,17535,17.535,1598,1.598,37.75,13,0.013,5114,65535,1092.25,252,4.2,1,84
14:44:45,17545,17.545,1596,1.596,37.85,23,0.023,5113,65535,1092.25,252,4.2,1,84
14:45:09,17555,17.555,1596,1.596,37.95,34,0.034,5113,65535,1092.25,251,4.18333,1,84
14:45:34,17565,17.565,1597,1.597,38.05,45,0.045,5114,65535,1092.25,251,4.18333,1,84
14:45:58,17575,17.575,1596,1.596,38.15,55,0.055,5113,65535,1092.25,251,4.18333,2,84
14:46:22,17585,17.585,1596,1.596,38.25,66,0.066,5113,65535,1092.25,250,4.16667,2,84
14:46:46,17595,17.595,1594,1.594,38.25,77,0.077,5113,65535,1092.25,250,4.16667,2,84
14:47:10,17605,17.605,1593,1.593,38.25,88,0.088,5114,65535,1092.25,250,4.16667,2,84
14:47:34,17615,17.615,1592,1.592,38.25,98,0.098,5113,65535,1092.25,249,4.15,2,84
14:47:59,17615,17.615,1591,1.591,38.35,109,0.109,5113,65535,1092.25,249,4.15,3,84
14:48:23,17625,17.625,1590,1.59,38.35,119,0.119,5113,65535,1092.25,249,4.15,3,84
14:48:47,17635,17.635,1589,1.589,38.35,130,0.13,5113,65535,1092.25,248,4.13333,3,84
14:49:11,17645,17.645,1589,1.589,38.35,141,0.141,5114,65535,1092.25,248,4.13333,3,84
14:49:35,17650,17.65,1589,1.589,38.45,151,0.151,5113,65535,1092.25,248,4.13333,3,84
14:49:59,17660,17.66,1590,1.59,38.55,162,0.162,5113,65535,1092.25,247,4.11667,4,84
14:50:24,17670,17.67,1587,1.587,38.65,172,0.172,5113,65535,1092.25,247,4.11667,4,84
14:50:48,17680,17.68,1587,1.587,38.65,183,0.183,5113,65535,1092.25,247,4.11667,4,84
14:51:12,17685,17.685,1588,1.588,38.65,194,0.194,5113,65535,1092.25,246,4.1,4,84
14:51:36,17695,17.695,1586,1.586,38.65,205,0.205,5114,65535,1092.25,246,4.1,5,84
14:52:00,17705,17.705,1585,1.585,38.75,215,0.215,5113,65535,1092.25,246,4.1,5,84
14:52:24,17715,17.715,1585,1.585,38.75,226,0.226,5114,65535,1092.25,245,4.08333,5,84
14:52:48,17715,17.715,1585,1.585,38.85,236,0.236,5113,65535,1092.25,245,4.08333,5,84
14:53:13,17725,17.725,1583,1.583,38.85,247,0.247,5113,65535,1092.25,245,4.08333,5,84
14:53:37,17730,17.73,1583,1.583,38.85,257,0.257,5113,65535,1092.25,244,4.06667,6,84
14:54:01,17740,17.74,1581,1.581,38.95,268,0.268,5113,65535,1092.25,244,4.06667,6,84
14:54:25,17750,17.75,1581,1.581,39.05,279,0.279,5114,65535,1092.25,244,4.06667,6,84
14:54:49,17755,17.755,1581,1.581,39.05,289,0.289,5113,65535,1092.25,243,4.05,6,84
14:55:13,17765,17.765,1580,1.58,39.05,300,0.3,5113,65535,1092.25,243,4.05,6,84
14:55:38,17775,17.775,1579,1.579,39.15,311,0.311,5114,65535,1092.25,243,4.05,7,84
14:56:02,17780,17.78,1578,1.578,39.15,321,0.321,5113,65535,1092.25,242,4.03333,7,84
14:56:26,17790,17.79,1578,1.578,39.25,332,0.332,5114,65535,1092.25,242,4.03333,7,84
14:56:50,17800,17.8,1576,1.576,39.25,342,0.342,5113,65535,1092.25,242,4.03333,7,84
14:57:14,17805,17.805,1576,1.576,39.25,353,0.353,5114,65535,1092.25,242,4.03333,7,84
14:57:38,17815,17.815,1576,1.576,39.15,363,0.363,5113,65535,1092.25,241,4.01667,8,84
14:58:02,17820,17.82,1575,1.575,39.15,374,0.374,5114,65535,1092.25,241,4.01667,8,84
14:58:27,17825,17.825,1574,1.574,39.15,384,0.384,5113,65535,1092.25,241,4.01667,8,84
14:58:51,17835,17.835,1573,1.573,39.25,395,0.395,5114,65535,1092.25,240,4.0,8,84
14:59:15,17845,17.845,1573,1.573,39.25,406,0.406,5114,65535,1092.25,240,4.0,8,84
14:59:39,17855,17.855,1572,1.572,39.25,416,0.416,5113,65535,1092.25,240,4.0,9,84
15:00:03,17865,17.865,1571,1.571,39.25,426,0.426,5113,65535,1092.25,239,3.98333,9,84
15:00:27,17875,17.875,1570,1.57,39.25,437,0.437,5113,65535,1092.25,239,3.98333,9,84
15:00:52,17885,17.885,1569,1.569,39.25,447,0.447,5113,65535,1092.25,239,3.98333,9,84
15:01:16,17895,17.895,1569,1.569,39.25,458,0.458,5113,65535,1092.25,238,3.96667,9,84
15:01:40,17900,17.9,1567,1.567,39.25,468,0.468,5113,65535,1092.25,238,3.96667,10,84
15:02:04,17910,17.91,1567,1.567,39.25,479,0.479,5113,65535,1092.25,238,3.96667,10,84
15:02:28,17915,17.915,1564,1.564,39.25,490,0.49,5114,65535,1092.25,237,3.95,10,84
15:02:52,17925,17.925,1563,1.563,39.35,500,0.5,5113,65535,1092.25,237,3.95,10,84
15:03:17,17940,17.94,1563,1.563,39.25,511,0.511,5114,65535,1092.25,237,3.95,10,84
15:03:41,17945,17.945,1562,1.562,39.25,521,0.521,5113,65535,1092.25,236,3.93333,11,84
15:04:05,17955,17.955,1562,1.562,39.25,531,0.531,5113,65535,1092.25,236,3.93333,11,84
15:04:29,17965,17.965,1562,1.562,39.25,542,0.542,5113,65535,1092.25,236,3.93333,11,84
15:04:53,17975,17.975,1561,1.561,39.35,552,0.552,5113,65535,1092.25,235,3.91667,11,84
15:05:17,17985,17.985,1559,1.559,39.35,563,0.563,5114,65535,1092.25,235,3.91667,12,84
15:05:42,18000,18.0,1559,1.559,39.35,573,0.573,5113,65535,1092.25,235,3.91667,12,84
15:06:06,18010,18.01,1557,1.557,39.35,584,0.584,5113,65535,1092.25,234,3.9,12,84
15:06:30,18015,18.015,1556,1.556,39.45,594,0.594,5113,65535,1092.25,234,3.9,12,84
15:06:54,18025,18.025,1557,1.557,39.45,605,0.605,5114,65535,1092.25,234,3.9,12,84
15:07:18,18035,18.035,1556,1.556,39.35,615,0.615,5113,65535,1092.25,234,3.9,13,84
15:07:42,18045,18.045,1554,1.554,39.35,625,0.625,5113,65535,1092.25,233,3.88333,13,84
15:08:06,18060,18.06,1554,1.554,39.35,636,0.636,5114,65535,1092.25,233,3.88333,13,84
15:08:31,18065,18.065,1552,1.552,39.35,646,0.646,5113,65535,1092.25,233,3.88333,13,84
15:08:55,18075,18.075,1552,1.552,39.35,656,0.656,5113,65535,1092.25,232,3.86667,13,84
15:09:19,18085,18.085,1552,1.552,39.35,667,0.667,5114,65535,1092.25,232,3.86667,14,84
15:09:43,18095,18.095,1550,1.55,39.45,677,0.677,5113,65535,1092.25,232,3.86667,14,84
15:10:07,18105,18.105,1550,1.55,39.45,688,0.688,5113,65535,1092.25,231,3.85,14,84
15:10:31,18115,18.115,1547,1.547,39.35,698,0.698,5113,65535,1092.25,231,3.85,14,84
15:10:56,18120,18.12,1547,1.547,39.35,708,0.708,5113,65535,1092.25,231,3.85,14,84
15:11:20,18130,18.13,1547,1.547,39.25,719,0.719,5114,65535,1092.25,230,3.83333,15,84
15:11:44,18135,18.135,1546,1.546,39.25,729,0.729,5113,65535,1092.25,230,3.83333,15,84
15:12:08,18145,18.145,1546,1.546,39.35,739,0.739,5113,65535,1092.25,230,3.83333,15,84
15:12:32,18150,18.15,1545,1.545,39.35,750,0.75,5114,65535,1092.25,229,3.81667,15,84
15:12:56,18160,18.16,1545,1.545,39.25,760,0.76,5113,65535,1092.25,229,3.81667,15,84
15:13:20,18170,18.17,1544,1.544,39.35,770,0.77,5113,65535,1092.25,229,3.81667,16,84
15:13:45,18175,18.175,1543,1.543,39.35,781,0.781,5113,65535,1092.25,228,3.8,16,84
15:14:09,18180,18.18,1543,1.543,39.35,791,0.791,5113,65535,1092.25,228,3.8,16,84
15:14:33,18190,18.19,1544,1.544,39.25,802,0.802,5114,65535,1092.25,228,3.8,16,84
15:14:57,18195,18.195,1543,1.543,39.25,812,0.812,5113,65535,1092.25,227,3.78333,16,84
15:15:21,18205,18.205,1541,1.541,39.35,822,0.822,5113,65535,1092.25,227,3.78333,17,84
15:15:45,18210,18.21,1540,1.54,39.35,832,0.832,5113,65535,1092.25,227,3.78333,17,84
15:16:10,18215,18.215,1541,1.541,39.35,843,0.843,5114,65535,1092.25,226,3.76667,17,84
15:16:34,18220,18.22,1541,1.541,39.35,853,0.853,5113,65535,1092.25,226,3.76667,17,84
15:16:58,18225,18.225,1540,1.54,39.35,863,0.863,5113,65535,1092.25,226,3.76667,17,84
15:17:22,18230,18.23,1539,1.539,39.35,874,0.874,5113,65535,1092.25,225,3.75,18,84
15:17:46,18235,18.235,1539,1.539,39.35,884,0.884,5113,65535,1092.25,225,3.75,18,84
15:18:10,18240,18.24,1537,1.537,39.35,894,0.894,5113,65535,1092.25,225,3.75,18,84
15:18:35,18250,18.25,1536,1.536,39.25,905,0.905,5114,65535,1092.25,224,3.73333,18,84
15:18:59,18255,18.255,1536,1.536,39.25,915,0.915,5113,65535,1092.25,224,3.73333,18,84
15:19:23,18260,18.26,1536,1.536,39.25,925,0.925,5113,65535,1092.25,224,3.73333,19,84
15:19:47,18265,18.265,1536,1.536,39.25,935,0.935,5113,65535,1092.25,223,3.71667,19,84
15:20:11,18270,18.27,1536,1.536,39.25,946,0.946,5114,65535,1092.25,223,3.71667,19,84
15:20:35,18280,18.28,1536,1.536,39.35,956,0.956,5113,65535,1092.25,222,3.7,19,84
15:20:59,18280,18.28,1534,1.534,39.35,967,0.967,5114,65535,1092.25,222,3.7,19,84
15:21:24,18290,18.29,1534,1.534,39.35,977,0.977,5114,65535,1092.25,222,3.7,20,84
15:21:48,18295,18.295,1534,1.534,39.35,987,0.987,5113,65535,1092.25,221,3.68333,20,84
15:22:12,18300,18.3,1532,1.532,39.25,997,0.997,5113,65535,1092.25,221,3.68333,20,84
15:22:36,18305,18.305,1532,1.532,39.25,1007,1.007,5113,65535,1092.25,221,3.68333,20,84
15:23:00,18310,18.31,1532,1.532,39.35,1018,1.018,5114,65535,1092.25,220,3.66667,20,84
15:23:24,18315,18.315,1531,1.531,39.35,1028,1.028,5113,65535,1092.25,220,3.66667,21,84
15:23:49,18320,18.32,1531,1.531,39.45,1038,1.038,5113,65535,1092.25,220,3.66667,21,84
15:24:13,18320,18.32,1532,1.532,39.45,1048,1.048,5113,65535,1092.25,219,3.65,21,84
15:24:37,18330,18.33,1529,1.529,39.45,1059,1.059,5113,65535,1092.25,219,3.65,21,84
15:25:01,18335,18.335,1529,1.529,39.35,1069,1.069,5113,65535,1092.25,218,3.63333,21,84
15:25:25,18340,18.34,1529,1.529,39.35,1079,1.079,5113,65535,1092.25,218,3.63333,22,84
15:25:49,18345,18.345,1529,1.529,39.45,1089,1.089,5113,65535,1092.25,218,3.63333,22,84
15:26:13,18350,18.35,1528,1.528,39.35,1100,1.1,5114,65535,1092.25,217,3.61667,22,84
15:26:38,18355,18.355,1528,1.528,39.25,1110,1.11,5113,65535,1092.25,217,3.61667,22,84
15:27:02,18360,18.36,1527,1.527,39.25,1120,1.12,5113,65535,1092.25,217,3.61667,22,84
15:27:26,18365,18.365,1526,1.526,39.15,1130,1.13,5113,65535,1092.25,216,3.6,23,84
15:27:50,18375,18.375,1525,1.525,39.05,1140,1.14,5113,65535,1092.25,216,3.6,23,84
15:28:14,18380,18.38,1524,1.524,39.05,1151,1.151,5113,65535,1092.25,216,3.6,23,84
15:28:38,18385,18.385,1524,1.524,38.95,1161,1.161,5113,65535,1092.25,215,3.58333,23,84
15:29:03,18390,18.39,1524,1.524,38.95,1171,1.171,5113,65535,1092.25,215,3.58333,23,84
15:29:27,18395,18.395,1524,1.524,38.95,1181,1.181,5113,65535,1092.25,215,3.58333,24,84
15:29:51,18405,18.405,1524,1.524,39.05,1192,1.192,5114,65535,1092.25,214,3.56667,24,84
15:30:15,18410,18.41,1523,1.523,39.05,1202,1.202,5113,65535,1092.25,214,3.56667,24,84
15:30:39,18415,18.415,1523,1.523,39.05,1212,1.212,5113,65535,1092.25,213,3.55,24,84
15:31:03,18420,18.42,1523,1.523,39.25,1222,1.222,5113,65535,1092.25,213,3.55,24,84
15:31:28,18420,18.42,1523,1.523,39.25,1232,1.232,5113,65535,1092.25,213,3.55,25,84
15:31:52,18430,18.43,1528,1.528,39.15,1243,1.243,5113,65535,1092.25,212,3.53333,25,84
15:32:16,18435,18.435,1528,1.528,39.15,1253,1.253,5113,65535,1092.25,211,3.51667,25,84
15:32:40,18440,18.44,1527,1.527,39.15,1263,1.263,5113,65535,1092.25,211,3.51667,25,84
15:33:04,18445,18.445,1526,1.526,39.15,1273,1.273,5113,65535,1092.25,211,3.51667,25,84
15:33:28,18450,18.45,1525,1.525,39.05,1284,1.284,5114,65535,1092.25,210,3.5,26,84
15:33:53,18455,18.455,1525,1.525,38.95,1294,1.294,5114,65535,1092.25,210,3.5,26,84
15:34:17,18465,18.465,1524,1.524,39.05,1304,1.304,5113,65535,1092.25,210,3.5,26,84
15:34:41,18465,18.465,1524,1.524,39.05,1314,1.314,5113,65535,1092.25,209,3.48333,26,84
15:35:05,18475,18.475,1524,1.524,39.05,1324,1.324,5113,65535,1092.25,209,3.48333,26,84
15:35:29,18480,18.48,1524,1.524,39.05,1334,1.334,5113,65535,1092.25,209,3.48333,27,84
15:35:53,18485,18.485,1524,1.524,38.95,1345,1.345,5113,65535,1092.25,208,3.46667,27,84
15:36:17,18490,18.49,1526,1.526,38.95,1355,1.355,5113,65535,1092.25,208,3.46667,27,84
15:36:42,18500,18.5,1526,1.526,38.75,1365,1.365,5113,65535,1092.25,207,3.45,27,84
15:37:06,18505,18.505,1526,1.526,38.65,1375,1.375,5113,65535,1092.25,207,3.45,27,84
15:37:30,18510,18.51,1525,1.525,38.55,1386,1.386,5114,65535,1092.25,206,3.43333,28,84
15:37:54,18515,18.515,1524,1.524,38.45,1396,1.396,5113,65535,1092.25,206,3.43333,28,84
15:38:18,18520,18.52,1525,1.525,38.35,1406,1.406,5113,65535,1092.25,206,3.43333,28,84
15:38:42,18520,18.52,1524,1.524,38.25,1416,1.416,5113,65535,1092.25,205,3.41667,28,84
15:39:07,18525,18.525,1524,1.524,38.25,1426,1.426,5113,65535,1092.25,205,3.41667,28,84
15:39:31,18530,18.53,1522,1.522,38.25,1436,1.436,5113,65535,1092.25,205,3.41667,29,84
15:39:55,18540,18.54,1523,1.523,38.35,1447,1.447,5114,65535,1092.25,204,3.4,29,84
15:40:19,18545,18.545,1524,1.524,38.45,1457,1.457,5114,65535,1092.25,204,3.4,29,84
15:40:43,18550,18.55,1524,1.524,38.45,1467,1.467,5113,65535,1092.25,203,3.38333,29,84
15:41:07,18555,18.555,1523,1.523,38.55,1477,1.477,5113,65535,1092.25,203,3.38333,29,84
15:41:31,18560,18.56,1524,1.524,38.55,1488,1.488,5114,65535,1092.25,203,3.38333,30,84
15:41:56,18570,18.57,1522,1.522,38.55,1498,1.498,5113,65535,1092.25,202,3.36667,30,84
15:42:20,18575,18.575,1522,1.522,38.45,1508,1.508,5113,65535,1092.25,202,3.36667,30,84
15:42:44,18580,18.58,1522,1.522,38.35,1518,1.518,5113,65535,1092.25,201,3.35,30,84
15:43:08,18585,18.585,1522,1.522,38.35,1528,1.528,5113,65535,1092.25,201,3.35,30,84
15:43:32,18590,18.59,1521,1.521,38.25,1538,1.538,5113,65535,1092.25,201,3.35,31,84
15:43:56,18595,18.595,1521,1.521,38.25,1549,1.549,5114,65535,1092.25,200,3.33333,31,84
15:44:21,18600,18.6,1521,1.521,38.15,1559,1.559,5114,65535,1092.25,200,3.33333,31,84
15:44:45,18610,18.61,1519,1.519,38.15,1569,1.569,5113,65535,1092.25,200,3.33333,31,84
15:45:09,18615,18.615,1519,1.519,38.15,1579,1.579,5113,65535,1092.25,199,3.31667,31,84
15:45:33,18620,18.62,1520,1.52,38.15,1589,1.589,5113,65535,1092.25,199,3.31667,32,84
15:45:57,18620,18.62,1519,1.519,38.15,1600,1.6,5114,65535,1092.25,198,3.3,32,84
15:46:21,18630,18.63,1519,1.519,38.05,1610,1.61,5114,65535,1092.25,198,3.3,32,84
15:46:46,18630,18.63,1517,1.517,37.95,1620,1.62,5113,65535,1092.25,198,3.3,32,84
15:47:10,18640,18.64,1518,1.518,37.85,1630,1.63,5113,65535,1092.25,197,3.28333,32,84
15:47:34,18645,18.645,1517,1.517,37.85,1640,1.64,5113,65535,1092.25,197,3.28333,33,84
15:47:58,18650,18.65,1517,1.517,37.85,1650,1.65,5113,65535,1092.25,197,3.28333,33,84
15:48:22,18655,18.655,1515,1.515,37.65,1660,1.66,5113,65535,1092.25,196,3.26667,33,84
15:48:46,18660,18.66,1516,1.516,37.55,1670,1.67,5113,65535,1092.25,196,3.26667,33,84
15:49:10,18665,18.665,1515,1.515,37.55,1680,1.68,5113,65535,1092.25,196,3.26667,33,84
15:49:35,18675,18.675,1516,1.516,37.55,1691,1.691,5114,65535,1092.25,195,3.25,34,84
15:49:59,18680,18.68,1514,1.514,37.55,1701,1.701,5114,65535,1092.25,195,3.25,34,84
15:50:23,18685,18.685,1512,1.512,37.55,1711,1.711,5113,65535,1092.25,195,3.25,34,84
15:50:47,18690,18.69,1511,1.511,37.55,1721,1.721,5113,65535,1092.25,194,3.23333,34,84
15:51:11,18695,18.695,1508,1.508,37.55,1731,1.731,5113,65535,1092.25,194,3.23333,34,84
15:51:35,18700,18.7,1507,1.507,37.65,1741,1.741,5113,65535,1092.25,194,3.23333,35,84
15:52:00,18705,18.705,1506,1.506,37.75,1751,1.751,5113,65535,1092.25,193,3.21667,35,84
15:52:24,18715,18.715,1506,1.506,37.95,1761,1.761,5113,65535,1092.25,193,3.21667,35,84
15:52:48,18720,18.72,1506,1.506,37.95,1771,1.771,5113,65535,1092.25,193,3.21667,35,84
15:53:12,18725,18.725,1506,1.506,38.15,1782,1.782,5114,65535,1092.25,192,3.2,35,84
15:53:36,18725,18.725,1507,1.507,38.15,1792,1.792,5114,65535,1092.25,192,3.2,36,84
15:54:00,18730,18.73,1507,1.507,38.25,1802,1.802,5114,65535,1092.25,191,3.18333,36,84
15:54:24,18740,18.74,1507,1.507,38.25,1812,1.812,5114,65535,1092.25,191,3.18333,36,84
15:54:49,18745,18.745,1507,1.507,38.15,1822,1.822,5114,65535,1092.25,191,3.18333,36,84
15:55:13,18750,18.75,1506,1.506,38.15,1832,1.832,5114,65535,1092.25,190,3.16667,36,84
15:55:37,18755,18.755,1506,1.506,38.05,1842,1.842,5113,65535,1092.25,190,3.16667,37,84
15:56:01,18765,18.765,1505,1.505,37.95,1852,1.852,5113,65535,1092.25,190,3.16667,37,84
15:56:25,18765,18.765,1503,1.503,37.95,1862,1.862,5113,65535,1092.25,189,3.15,37,84
15:56:49,18770,18.77,1504,1.504,37.85,1872,1.872,5113,65535,1092.25,189,3.15,37,84
15:57:14,18780,18.78,1503,1.503,37.85,1882,1.882,5113,65535,1092.25,189,3.15,37,84
15:57:38,18785,18.785,1501,1.501,37.85,1892,1.892,5113,65535,1092.25,188,3.13333,38,84
15:58:02,18790,18.79,1501,1.501,37.85,1902,1.902,5113,65535,1092.25,188,3.13333,38,84
15:58:26,18795,18.795,1500,1.5,37.75,1912,1.912,5113,65535,1092.25,188,3.13333,38,84
15:58:50,18805,18.805,1498,1.498,37.75,1922,1.922,5113,65535,1092.25,187,3.11667,38,84
15:59:14,18810,18.81,1498,1.498,37.65,1932,1.932,5113,65535,1092.25,187,3.11667,38,84
15:59:38,18815,18.815,1498,1.498,37.75,1942,1.942,5113,65535,1092.25,186,3.1,38,84
16:00:03,18820,18.82,1498,1.498,37.85,1952,1.952,5113,65535,1092.25,186,3.1,39,84
16:00:27,18825,18.825,1499,1.499,37.95,1962,1.962,5113,65535,1092.25,186,3.1,39,84
16:00:51,18825,18.825,1497,1.497,38.15,1972,1.972,5113,65535,1092.25,185,3.08333,39,84
16:01:15,18835,18.835,1497,1.497,38.15,1982,1.982,5113,65535,1092.25,185,3.08333,39,84
16:01:39,18840,18.84,1497,1.497,38.25,1992,1.992,5113,65535,1092.25,185,3.08333,39,84
16:02:03,18845,18.845,1497,1.497,38.25,2002,2.002,5113,65535,1092.25,184,3.06667,40,84
16:02:28,18850,18.85,1496,1.496,38.25,2012,2.012,5113,65535,1092.25,184,3.06667,40,84
16:02:52,18860,18.86,1494,1.494,38.35,2023,2.023,5114,65535,1092.25,183,3.05,40,84
16:03:16,18865,18.865,1494,1.494,38.35,2032,2.032,5113,65535,1092.25,183,3.05,40,84
16:03:40,18870,18.87,1494,1.494,38.45,2042,2.042,5113,65535,1092.25,183,3.05,40,84
16:04:04,18880,18.88,1494,1.494,38.55,2052,2.052,5113,65535,1092.25,182,3.03333,41,84
16:04:28,18885,18.885,1493,1.493,38.55,2062,2.062,5113,65535,1092.25,182,3.03333,41,84
16:04:52,18890,18.89,1494,1.494,38.55,2072,2.072,5113,65535,1092.25,182,3.03333,41,84
16:05:17,18900,18.9,1493,1.493,38.65,2082,2.082,5113,65535,1092.25,181,3.01667,41,84
16:05:41,18905,18.905,1492,1.492,38.65,2092,2.092,5113,65535,1092.25,181,3.01667,41,84
16:06:05,18910,18.91,1494,1.494,38.65,2102,2.102,5113,65535,1092.25,180,3.0,42,84
16:06:29,18915,18.915,1493,1.493,38.65,2112,2.112,5113,65535,1092.25,180,3.0,42,84
16:06:53,18925,18.925,1493,1.493,38.65,2122,2.122,5113,65535,1092.25,180,3.0,42,84
16:07:17,18925,18.925,1493,1.493,38.55,2132,2.132,5113,65535,1092.25,179,2.98333,42,84
16:07:42,18935,18.935,1495,1.495,38.55,2142,2.142,5113,65535,1092.25,179,2.98333,42,84
16:08:06,18940,18.94,1496,1.496,38.55,2152,2.152,5113,65535,1092.25,178,2.96667,43,84
16:08:30,18950,18.95,1495,1.495,38.35,2162,2.162,5113,65535,1092.25,178,2.96667,43,84
16:08:54,18955,18.955,1494,1.494,38.35,2172,2.172,5113,65535,1092.25,178,2.96667,43,84
16:09:18,18960,18.96,1493,1.493,38.25,2182,2.182,5113,65535,1092.25,177,2.95,43,84
16:09:42,18970,18.97,1494,1.494,38.15,2192,2.192,5113,65535,1092.25,177,2.95,43,84
16:10:07,18975,18.975,1491,1.491,38.15,2202,2.202,5113,65535,1092.25,177,2.95,44,84
16:10:31,18985,18.985,1492,1.492,38.05,2212,2.212,5113,65535,1092.25,176,2.93333,44,84
16:10:55,18990,18.99,1492,1.492,38.15,2222,2.222,5113,65535,1092.25,176,2.93333,44,84
16:11:19,19000,19.0,1492,1.492,38.05,2232,2.232,5113,65535,1092.25,175,2.91667,44,84
16:11:43,19005,19.005,1490,1.49,38.05,2242,2.242,5113,65535,1092.25,175,2.91667,44,84
16:12:07,19015,19.015,1489,1.489,37.85,2252,2.252,5113,65535,1092.25,175,2.91667,45,84
16:12:31,19020,19.02,1489,1.489,37.75,2262,2.262,5113,65535,1092.25,174,2.9,45,84
16:12:56,19025,19.025,1490,1.49,37.75,2272,2.272,5113,65535,1092.25,174,2.9,45,84
16:13:20,19030,19.03,1489,1.489,37.75,2282,2.282,5113,65535,1092.25,173,2.88333,45,84
16:13:44,19040,19.04,1488,1.488,37.65,2292,2.292,5113,65535,1092.25,173,2.88333,45,84
16:14:08,19050,19.05,1485,1.485,37.65,2302,2.302,5113,65535,1092.25,173,2.88333,46,84
16:14:32,19055,19.055,1484,1.484,37.55,2312,2.312,5113,65535,1092.25,173,2.88333,46,84
16:14:56,19065,19.065,1483,1.483,37.55,2322,2.322,5114,65535,1092.25,172,2.86667,46,84
16:15:21,19070,19.07,1482,1.482,37.65,2332,2.332,5114,65535,1092.25,172,2.86667,46,84
16:15:45,19080,19.08,1482,1.482,37.65,2341,2.341,5113,65535,1092.25,172,2.86667,46,84
16:16:09,19085,19.085,1481,1.481,37.65,2351,2.351,5113,65535,1092.25,171,2.85,46,84
16:16:33,19095,19.095,1479,1.479,37.65,2361,2.361,5113,65535,1092.25,171,2.85,47,84
16:16:57,19100,19.1,1478,1.478,37.65,2371,2.371,5113,65535,1092.25,171,2.85,47,84
16:17:21,19110,19.11,1479,1.479,37.65,2381,2.381,5113,65535,1092.25,170,2.83333,47,84
16:17:45,19120,19.12,1477,1.477,37.65,2391,2.391,5113,65535,1092.25,170,2.83333,47,84
16:18:10,19125,19.125,1477,1.477,37.75,2401,2.401,5114,65535,1092.25,170,2.83333,47,84
16:18:34,19130,19.13,1476,1.476,37.75,2410,2.41,5113,65535,1092.25,169,2.81667,48,84
16:18:58,19140,19.14,1475,1.475,37.75,2420,2.42,5113,65535,1092.25,169,2.81667,48,84
16:19:22,19150,19.15,1475,1.475,37.75,2430,2.43,5113,65535,1092.25,168,2.8,48,84
16:19:46,19155,19.155,1472,1.472,37.75,2440,2.44,5113,65535,1092.25,168,2.8,48,84
16:20:10,19165,19.165,1474,1.474,37.85,2450,2.45,5113,65535,1092.25,168,2.8,48,84
16:20:35,19175,19.175,1471,1.471,37.95,2460,2.46,5113,65535,1092.25,167,2.78333,49,84
16:20:59,19185,19.185,1471,1.471,37.95,2470,2.47,5113,65535,1092.25,167,2.78333,49,84
16:21:23,19190,19.19,1471,1.471,38.05,2480,2.48,5114,65535,1092.25,167,2.78333,49,84
16:21:47,19200,19.2,1471,1.471,38.05,2489,2.489,5113,65535,1092.25,166,2.76667,49,84
16:22:11,19210,19.21,1470,1.47,38.05,2499,2.499,5113,65535,1092.25,166,2.76667,49,84
16:22:35,19220,19.22,1470,1.47,37.95,2509,2.509,5113,65535,1092.25,166,2.76667,50,84
16:22:59,19225,19.225,1468,1.468,37.95,2519,2.519,5113,65535,1092.25,165,2.75,50,84
16:23:24,19230,19.23,1467,1.467,38.05,2529,2.529,5114,65535,1092.25,165,2.75,50,84
16:23:48,19240,19.24,1467,1.467,38.15,2538,2.538,5113,65535,1092.25,164,2.73333,50,84
16:24:12,19250,19.25,1467,1.467,38.15,2548,2.548,5113,65535,1092.25,164,2.73333,50,84
16:24:36,19260,19.26,1468,1.468,38.15,2558,2.558,5113,65535,1092.25,164,2.73333,51,84
16:25:00,19265,19.265,1468,1.468,38.05,2568,2.568,5114,65535,1092.25,163,2.71667,51,84
16:25:24,19275,19.275,1467,1.467,38.05,2578,2.578,5114,65535,1092.25,163,2.71667,51,84
16:25:49,19285,19.285,1468,1.468,37.95,2587,2.587,5113,65535,1092.25,162,2.7,51,84
16:26:13,19295,19.295,1466,1.466,37.85,2597,2.597,5113,65535,1092.25,162,2.7,51,84
16:26:37,19305,19.305,1467,1.467,37.85,2607,2.607,5113,65535,1092.25,162,2.7,51,84
16:27:01,19315,19.315,1467,1.467,37.75,2617,2.617,5113,65535,1092.25,161,2.68333,52,84
16:27:25,19325,19.325,1466,1.466,37.65,2627,2.627,5113,65535,1092.25,161,2.68333,52,84
16:27:49,19330,19.33,1466,1.466,37.65,2637,2.637,5114,65535,1092.25,160,2.66667,52,84
16:28:13,19335,19.335,1465,1.465,37.65,2646,2.646,5113,65535,1092.25,160,2.66667,52,84
16:28:38,19345,19.345,1465,1.465,37.65,2656,2.656,5113,65535,1092.25,160,2.66667,52,84
16:29:02,19355,19.355,1464,1.464,37.55,2666,2.666,5113,65535,1092.25,159,2.65,53,84
16:29:26,19365,19.365,1462,1.462,37.55,2676,2.676,5114,65535,1092.25,159,2.65,53,84
16:29:50,19370,19.37,1460,1.46,37.65,2685,2.685,5113,65535,1092.25,159,2.65,53,84
16:30:14,19385,19.385,1461,1.461,37.65,2695,2.695,5113,65535,1092.25,158,2.63333,53,84
16:30:38,19390,19.39,1462,1.462,37.65,2705,2.705,5113,65535,1092.25,158,2.63333,53,84
16:31:03,19400,19.4,1462,1.462,37.65,2715,2.715,5114,65535,1092.25,158,2.63333,54,84
16:31:27,19410,19.41,1462,1.462,37.55,2724,2.724,5113,65535,1092.25,157,2.61667,54,84
16:31:51,19420,19.42,1462,1.462,37.45,2734,2.734,5113,65535,1092.25,157,2.61667,54,84
16:32:15,19430,19.43,1460,1.46,37.35,2744,2.744,5113,65535,1092.25,156,2.6,54,84
16:32:39,19435,19.435,1460,1.46,37.35,2754,2.754,5114,65535,1092.25,156,2.6,54,84
16:33:03,19445,19.445,1459,1.459,37.25,2763,2.763,5113,65535,1092.25,156,2.6,55,84
16:33:28,19455,19.455,1459,1.459,37.25,2773,2.773,5113,65535,1092.25,155,2.58333,55,84
16:33:52,19460,19.46,1459,1.459,37.15,2783,2.783,5113,65535,1092.25,155,2.58333,55,84
16:34:16,19475,19.475,1458,1.458,37.15,2793,2.793,5113,65535,1092.25,155,2.58333,55,84
16:34:40,19480,19.48,1457,1.457,37.15,2803,2.803,5114,65535,1092.25,154,2.56667,55,84
16:35:04,19490,19.49,1457,1.457,37.25,2812,2.812,5113,65535,1092.25,154,2.56667,55,84
16:35:28,19500,19.5,1455,1.455,37.25,2822,2.822,5113,65535,1092.25,154,2.56667,56,84
16:35:52,19510,19.51,1455,1.455,37.15,2832,2.832,5114,65535,1092.25,153,2.55,56,84
16:36:17,19515,19.515,1454,1.454,37.25,2841,2.841,5113,65535,1092.25,153,2.55,56,84
16:36:41,19525,19.525,1453,1.453,37.15,2851,2.851,5113,65535,1092.25,152,2.53333,56,84
16:37:05,19530,19.53,1452,1.452,37.15,2861,2.861,5113,65535,1092.25,152,2.53333,56,84
16:37:29,19540,19.54,1451,1.451,37.15,2870,2.87,5113,65535,1092.25,152,2.53333,57,84
16:37:53,19550,19.55,1450,1.45,37.05,2880,2.88,5113,65535,1092.25,151,2.51667,57,84
16:38:17,19560,19.56,1449,1.449,36.95,2890,2.89,5113,65535,1092.25,151,2.51667,57,84
16:38:42,19565,19.565,1447,1.447,37.05,2899,2.899,5113,65535,1092.25,151,2.51667,57,84
16:39:06,19575,19.575,1446,1.446,36.85,2909,2.909,5113,65535,1092.25,150,2.5,57,84
16:39:30,19585,19.585,1444,1.444,36.85,2919,2.919,5114,65535,1092.25,150,2.5,58,84
16:39:54,19595,19.595,1444,1.444,36.85,2928,2.928,5113,65535,1092.25,150,2.5,58,84
16:40:18,19605,19.605,1442,1.442,36.85,2938,2.938,5113,65535,1092.25,149,2.48333,58,84
16:40:42,19610,19.61,1441,1.441,36.85,2948,2.948,5114,65535,1092.25,149,2.48333,58,84
16:41:06,19620,19.62,1440,1.44,36.85,2958,2.958,5114,65535,1092.25,149,2.48333,58,84
16:41:31,19630,19.63,1438,1.438,36.85,2967,2.967,5113,65535,1092.25,148,2.46667,59,84
16:41:55,19635,19.635,1438,1.438,36.95,2977,2.977,5113,65535,1092.25,148,2.46667,59,84
16:42:19,19640,19.64,1438,1.438,37.05,2986,2.986,5113,65535,1092.25,148,2.46667,59,84
16:42:43,19650,19.65,1437,1.437,37.05,2996,2.996,5113,65535,1092.25,147,2.45,59,84
16:43:07,19660,19.66,1438,1.438,37.05,3006,3.006,5114,65535,1092.25,147,2.45,59,84
16:43:31,19670,19.67,1436,1.436,37.05,3015,3.015,5113,65535,1092.25,146,2.43333,59,84
16:43:56,19675,19.675,1435,1.435,37.15,3025,3.025,5114,65535,1092.25,146,2.43333,60,84
16:44:20,19685,19.685,1434,1.434,37.25,3034,3.034,5113,65535,1092.25,146,2.43333,60,84
16:44:44,19695,19.695,1433,1.433,37.15,3044,3.044,5113,65535,1092.25,145,2.41667,60,84
16:45:08,19700,19.7,1432,1.432,37.15,3053,3.053,5113,65535,1092.25,145,2.41667,60,84
16:45:32,19710,19.71,1432,1.432,37.15,3063,3.063,5113,65535,1092.25,145,2.41667,60,84
16:45:56,19720,19.72,1432,1.432,37.15,3072,3.072,5113,65535,1092.25,144,2.4,61,84
16:46:21,19725,19.725,1431,1.431,37.15,3082,3.082,5113,65535,1092.25,144,2.4,61,84
16:46:45,19730,19.73,1430,1.43,37.15,3092,3.092,5114,65535,1092.25,144,2.4,61,84
16:47:09,19740,19.74,1430,1.43,37.05,3101,3.101,5113,65535,1092.25,143,2.38333,61,84
16:47:33,19745,19.745,1430,1.43,37.15,3111,3.111,5114,65535,1092.25,143,2.38333,61,84
16:47:57,19755,19.755,1430,1.43,37.25,3120,3.12,5113,65535,1092.25,142,2.36667,62,84
16:48:21,19765,19.765,1432,1.432,37.15,3130,3.13,5114,65535,1092.25,142,2.36667,62,84
16:48:45,19775,19.775,1433,1.433,37.15,3140,3.14,5114,65535,1092.25,141,2.35,62,84
16:49:10,19785,19.785,1434,1.434,37.05,3149,3.149,5113,65535,1092.25,141,2.35,62,84
16:49:34,19790,19.79,1434,1.434,37.05,3159,3.159,5114,65535,1092.25,141,2.35,62,84
16:49:58,19800,19.8,1433,1.433,36.85,3168,3.168,5113,65535,1092.25,140,2.33333,62,84
16:50:22,19805,19.805,1432,1.432,36.65,3178,3.178,5113,65535,1092.25,140,2.33333,63,84
16:50:46,19815,19.815,1430,1.43,36.55,3187,3.187,5113,65535,1092.25,140,2.33333,63,84
16:51:10,19825,19.825,1429,1.429,36.45,3197,3.197,5113,65535,1092.25,139,2.31667,63,84
16:51:35,19830,19.83,1427,1.427,36.25,3206,3.206,5113,65535,1092.25,139,2.31667,63,84
16:51:59,19835,19.835,1426,1.426,36.25,3216,3.216,5113,65535,1092.25,139,2.31667,63,84
16:52:23,19840,19.84,1424,1.424,36.35,3225,3.225,5113,65535,1092.25,138,2.3,64,84
16:52:47,19845,19.845,1423,1.423,36.55,3235,3.235,5113,65535,1092.25,138,2.3,64,84
16:53:11,19855,19.855,1421,1.421,36.65,3244,3.244,5113,65535,1092.25,138,2.3,64,84
16:53:35,19865,19.865,1422,1.422,36.85,3254,3.254,5113,65535,1092.25,137,2.28333,64,84
16:53:59,19870,19.87,1421,1.421,36.95,3263,3.263,5113,65535,1092.25,137,2.28333,64,84
16:54:24,19880,19.88,1422,1.422,36.95,3273,3.273,5113,65535,1092.25,136,2.26667,65,84
16:54:48,19885,19.885,1421,1.421,37.05,3282,3.282,5113,65535,1092.25,136,2.26667,65,84
16:55:12,19895,19.895,1423,1.423,37.05,3292,3.292,5113,65535,1092.25,136,2.26667,65,84
16:55:36,19905,19.905,1421,1.421,37.05,3302,3.302,5114,65535,1092.25,135,2.25,65,84
16:56:00,19910,19.91,1420,1.42,37.05,3311,3.311,5113,65535,1092.25,135,2.25,65,84
16:56:24,19920,19.92,1421,1.421,36.95,3321,3.321,5114,65535,1092.25,134,2.23333,65,84
16:56:49,19925,19.925,1418,1.418,36.95,3330,3.33,5113,65535,1092.25,134,2.23333,66,84
16:57:13,19930,19.93,1417,1.417,36.85,3340,3.34,5114,65535,1092.25,134,2.23333,66,84
16:57:37,19935,19.935,1415,1.415,36.85,3349,3.349,5113,65535,1092.25,133,2.21667,66,84
16:58:01,19945,19.945,1414,1.414,36.95,3358,3.358,5113,65535,1092.25,133,2.21667,66,84
16:58:25,19950,19.95,1414,1.414,37.05,3368,3.368,5113,65535,1092.25,133,2.21667,66,84
16:58:49,19955,19.955,1412,1.412,37.05,3377,3.377,5113,65535,1092.25,132,2.2,67,84
16:59:14,19965,19.965,1412,1.412,37.15,3387,3.387,5114,65535,1092.25,132,2.2,67,84
16:59:38,19970,19.97,1411,1.411,37.15,3396,3.396,5113,65535,1092.25,132,2.2,67,84
17:00:02,19980,19.98,1411,1.411,37.25,3405,3.405,5113,65535,1092.25,131,2.18333,67,84
17:00:26,19985,19.985,1411,1.411,37.25,3415,3.415,5113,65535,1092.25,131,2.18333,67,84
17:00:50,19995,19.995,1410,1.41,37.25,3424,3.424,5113,65535,1092.25,130,2.16667,67,84
17:01:14,20005,20.005,1410,1.41,37.25,3434,3.434,5114,65535,1092.25,130,2.16667,68,84
17:01:38,20010,20.01,1409,1.409,37.25,3443,3.443,5113,65535,1092.25,130,2.16667,68,84
17:02:03,20015,20.015,1409,1.409,37.15,3452,3.452,5113,65535,1092.25,129,2.15,68,84
17:02:27,20025,20.025,1408,1.408,37.05,3462,3.462,5113,65535,1092.25,129,2.15,68,84
17:02:51,20030,20.03,1408,1.408,37.05,3471,3.471,5113,65535,1092.25,129,2.15,68,84
17:03:15,20035,20.035,1408,1.408,37.15,3481,3.481,5113,65535,1092.25,128,2.13333,69,84
17:03:39,20040,20.04,1410,1.41,37.15,3490,3.49,5113,65535,1092.25,128,2.13333,69,84
17:04:03,20055,20.055,1412,1.412,37.15,3500,3.5,5113,65535,1092.25,127,2.11667,69,84
17:04:28,20060,20.06,1411,1.411,37.15,3509,3.509,5113,65535,1092.25,127,2.11667,69,84
17:04:52,20070,20.07,1410,1.41,37.05,3519,3.519,5114,65535,1092.25,126,2.1,69,84
17:05:16,20075,20.075,1410,1.41,37.05,3528,3.528,5113,65535,1092.25,126,2.1,70,84
17:05:40,20085,20.085,1407,1.407,37.05,3537,3.537,5113,65535,1092.25,126,2.1,70,84
17:06:04,20090,20.09,1407,1.407,36.95,3547,3.547,5113,65535,1092.25,125,2.08333,70,84
17:06:28,20100,20.1,1405,1.405,36.95,3556,3.556,5113,65535,1092.25,124,2.06667,70,84
17:06:52,20105,20.105,1406,1.406,37.05,3566,3.566,5114,65535,1092.25,123,2.05,70,84
17:07:17,20115,20.115,1404,1.404,37.05,3575,3.575,5113,65535,1092.25,123,2.05,70,84
17:07:41,20120,20.12,1403,1.403,36.95,3584,3.584,5113,65535,1092.25,122,2.03333,71,84
17:08:05,20130,20.13,1403,1.403,37.05,3594,3.594,5114,65535,1092.25,121,2.01667,71,84
17:08:29,20135,20.135,1403,1.403,37.05,3603,3.603,5113,65535,1092.25,120,2.0,71,84
17:08:53,20140,20.14,1401,1.401,36.85,3612,3.612,5113,65535,1092.25,119,1.98333,71,84
17:09:17,20145,20.145,1402,1.402,36.85,3622,3.622,5114,65535,1092.25,118,1.96667,71,84
17:09:42,20155,20.155,1400,1.4,36.75,3631,3.631,5113,65535,1092.25,118,1.96667,72,84
17:10:06,20165,20.165,1399,1.399,36.75,3640,3.64,5113,65535,1092.25,117,1.95,72,84
17:10:30,20170,20.17,1396,1.396,36.65,3650,3.65,5113,65535,1092.25,116,1.93333,72,84
17:10:54,20180,20.18,1395,1.395,36.75,3659,3.659,5113,65535,1092.25,115,1.91667,72,84
17:11:18,20190,20.19,1396,1.396,36.85,3669,3.669,5114,65535,1092.25,114,1.9,72,84
17:11:42,20195,20.195,1397,1.397,36.95,3678,3.678,5113,65535,1092.25,114,1.9,72,84
17:12:07,20205,20.205,1398,1.398,36.95,3687,3.687,5113,65535,1092.25,113,1.88333,73,84
17:12:31,20215,20.215,1398,1.398,36.95,3697,3.697,5114,65535,1092.25,112,1.86667,73,84
17:12:55,20225,20.225,1398,1.398,36.95,3706,3.706,5113,65535,1092.25,111,1.85,73,84
17:13:19,20230,20.23,1397,1.397,36.95,3715,3.715,5113,65535,1092.25,110,1.83333,73,84
17:13:43,20235,20.235,1393,1.393,36.95,3724,3.724,5113,65535,1092.25,109,1.81667,73,84
17:14:07,20245,20.245,1393,1.393,36.95,3734,3.734,5113,65535,1092.25,108,1.8,74,84
17:14:31,20255,20.255,1391,1.391,37.05,3743,3.743,5113,65535,1092.25,108,1.8,74,84
17:14:56,20260,20.26,1391,1.391,37.05,3752,3.752,5113,65535,1092.25,107,1.78333,74,84
17:15:20,20270,20.27,1391,1.391,36.95,3762,3.762,5114,65535,1092.25,106,1.76667,74,84
17:15:44,20280,20.28,1390,1.39,36.95,3771,3.771,5113,65535,1092.25,105,1.75,74,84
17:16:08,20285,20.285,1388,1.388,36.85,3780,3.78,5113,65535,1092.25,104,1.73333,74,84
17:16:32,20295,20.295,1385,1.385,36.95,3789,3.789,5113,65535,1092.25,104,1.73333,75,84
17:16:56,20305,20.305,1384,1.384,36.95,3799,3.799,5113,65535,1092.25,103,1.71667,75,84
17:17:21,20315,20.315,1385,1.385,37.05,3808,3.808,5113,65535,1092.25,102,1.7,75,84
17:17:45,20325,20.325,1386,1.386,37.05,3817,3.817,5113,65535,1092.25,101,1.68333,75,84
17:18:09,20335,20.335,1386,1.386,37.05,3827,3.827,5114,65535,1092.25,100,1.66667,75,84
17:18:33,20340,20.34,1385,1.385,36.95,3836,3.836,5113,65535,1092.25,99,1.65,76,84
17:18:57,20350,20.35,1385,1.385,36.95,3845,3.845,5113,65535,1092.25,98,1.63333,76,84
17:19:21,20355,20.355,1382,1.382,36.95,3854,3.854,5113,65535,1092.25,97,1.61667,76,84
17:19:45,20365,20.365,1383,1.383,37.05,3864,3.864,5114,65535,1092.25,96,1.6,76,84
17:20:10,20375,20.375,1382,1.382,36.95,3873,3.873,5113,65535,1092.25,96,1.6,76,84
17:20:34,20385,20.385,1381,1.381,36.95,3882,3.882,5113,65535,1092.25,95,1.58333,76,84
17:20:58,20395,20.395,1380,1.38,36.95,3891,3.891,5113,65535,1092.25,94,1.56667,77,84
17:21:22,20405,20.405,1381,1.381,36.95,3900,3.9,5113,65535,1092.25,93,1.55,77,84
17:21:46,20415,20.415,1381,1.381,36.95,3910,3.91,5114,65535,1092.25,92,1.53333,77,84
17:22:10,20425,20.425,1381,1.381,36.85,3919,3.919,5113,65535,1092.25,91,1.51667,77,84
17:22:35,20435,20.435,1379,1.379,36.85,3928,3.928,5113,65535,1092.25,90,1.5,77,84
17:22:59,20440,20.44,1379,1.379,36.75,3937,3.937,5113,65535,1092.25,90,1.5,77,84
17:23:23,20450,20.45,1376,1.376,36.75,3946,3.946,5113,65535,1092.25,89,1.48333,78,84
17:23:47,20460,20.46,1379,1.379,36.55,3956,3.956,5114,65535,1092.25,88,1.46667,78,84
17:24:11,20470,20.47,1378,1.378,36.55,3965,3.965,5113,65535,1092.25,87,1.45,78,84
17:24:35,20480,20.48,1378,1.378,36.45,3974,3.974,5113,65535,1092.25,86,1.43333,78,84
17:25:00,20490,20.49,1377,1.377,36.35,3984,3.984,5114,65535,1092.25,85,1.41667,78,84
17:25:24,20500,20.5,1376,1.376,36.25,3993,3.993,5113,65535,1092.25,84,1.4,79,84
17:25:48,20510,20.51,1374,1.374,36.25,4002,4.002,5113,65535,1092.25,83,1.38333,79,84
17:26:12,20520,20.52,1374,1.374,36.15,4011,4.011,5113,65535,1092.25,83,1.38333,79,84
17:26:36,20530,20.53,1374,1.374,36.05,4020,4.02,5113,65535,1092.25,82,1.36667,79,84
17:27:00,20540,20.54,1371,1.371,36.05,4029,4.029,5113,65535,1092.25,81,1.35,79,84
17:27:25,20545,20.545,1369,1.369,35.95,4039,4.039,5114,65535,1092.25,80,1.33333,79,84
17:27:49,20555,20.555,1366,1.366,35.95,4048,4.048,5113,65535,1092.25,79,1.31667,80,84
17:28:13,20565,20.565,1365,1.365,35.95,4057,4.057,5113,65535,1092.25,79,1.31667,80,84
17:28:37,20575,20.575,1364,1.364,36.05,4066,4.066,5113,65535,1092.25,78,1.3,80,84
17:29:01,20585,20.585,1364,1.364,35.95,4075,4.075,5113,65535,1092.25,77,1.28333,80,84
17:29:25,20595,20.595,1363,1.363,35.95,4084,4.084,5113,65535,1092.25,76,1.26667,80,84
17:29:49,20600,20.6,1362,1.362,35.95,4093,4.093,5113,65535,1092.25,75,1.25,81,84
17:30:14,20610,20.61,1361,1.361,35.95,4103,4.103,5114,65535,1092.25,74,1.23333,81,84
17:30:38,20620,20.62,1361,1.361,36.05,4112,4.112,5114,65535,1092.25,73,1.21667,81,84
17:31:02,20630,20.63,1361,1.361,36.15,4121,4.121,5114,65535,1092.25,72,1.2,81,84
17:31:26,20640,20.64,1361,1.361,36.15,4130,4.13,5113,65535,1092.25,72,1.2,81,84
17:31:50,20645,20.645,1359,1.359,36.25,4139,4.139,5113,65535,1092.25,71,1.18333,81,84
17:32:14,20655,20.655,1359,1.359,36.25,4148,4.148,5113,65535,1092.25,70,1.16667,82,84
17:32:39,20665,20.665,1359,1.359,36.15,4157,4.157,5113,65535,1092.25,69,1.15,82,84
17:33:03,20675,20.675,1358,1.358,36.25,4166,4.166,5113,65535,1092.25,68,1.13333,82,84
17:33:27,20680,20.68,1357,1.357,36.25,4175,4.175,5113,65535,1092.25,67,1.11667,82,84
17:33:51,20690,20.69,1357,1.357,36.35,4185,4.185,5114,65535,1092.25,66,1.1,82,84
17:34:15,20695,20.695,1355,1.355,36.45,4194,4.194,5114,65535,1092.25,65,1.08333,83,84
17:34:39,20705,20.705,1354,1.354,36.45,4203,4.203,5114,65535,1092.25,65,1.08333,83,84
17:35:03,20720,20.72,1355,1.355,36.55,4212,4.212,5114,65535,1092.25,64,1.06667,83,84
17:35:28,20725,20.725,1354,1.354,36.55,4221,4.221,5114,65535,1092.25,63,1.05,83,84
17:35:52,20735,20.735,1354,1.354,36.45,4230,4.23,5114,65535,1092.25,62,1.03333,83,84
17:36:16,20740,20.74,1354,1.354,36.35,4239,4.239,5114,65535,1092.25,61,1.01667,83,84
17:36:40,20745,20.745,1352,1.352,36.35,4248,4.248,5114,65535,1092.25,60,1.0,84,84
17:37:04,20755,20.755,1352,1.352,36.35,4257,4.257,5114,65535,1092.25,59,0.983333,84,84
17:37:28,20765,20.765,1351,1.351,36.35,4266,4.266,5114,65535,1092.25,58,0.966667,84,84
17:37:53,20770,20.77,1351,1.351,36.25,4275,4.275,5113,65535,1092.25,58,0.966667,84,84
17:38:17,20780,20.78,1350,1.35,36.15,4284,4.284,5113,65535,1092.25,57,0.95,84,84
17:38:41,20790,20.79,1349,1.349,36.15,4293,4.293,5113,65535,1092.25,56,0.933333,84,84
17:39:05,20795,20.795,1349,1.349,36.15,4302,4.302,5113,65535,1092.25,55,0.916667,85,84
17:39:29,20800,20.8,1348,1.348,36.25,4311,4.311,5113,65535,1092.25,54,0.9,85,84
17:39:53,20810,20.81,1348,1.348,36.25,4320,4.32,5113,65535,1092.25,53,0.883333,85,84
17:40:18,20815,20.815,1349,1.349,36.35,4329,4.329,5113,65535,1092.25,52,0.866667,85,84
17:40:42,20825,20.825,1347,1.347,36.35,4338,4.338,5113,65535,1092.25,51,0.85,85,84
17:41:06,20830,20.83,1346,1.346,36.45,4347,4.347,5113,65535,1092.25,51,0.85,86,84
17:41:30,20840,20.84,1348,1.348,36.45,4356,4.356,5113,65535,1092.25,50,0.833333,86,84
17:41:54,20845,20.845,1346,1.346,36.45,4365,4.365,5113,65535,1092.25,49,0.816667,86,84
17:42:18,20845,20.845,1346,1.346,36.45,4374,4.374,5113,65535,1092.25,48,0.8,86,84
17:42:42,20855,20.855,1345,1.345,36.55,4383,4.383,5113,65535,1092.25,47,0.783333,86,84
17:43:07,20860,20.86,1344,1.344,36.55,4392,4.392,5113,65535,1092.25,46,0.766667,86,84
17:43:31,20865,20.865,1345,1.345,36.55,4401,4.401,5113,65535,1092.25,45,0.75,87,84
17:43:55,20870,20.87,1345,1.345,36.55,4410,4.41,5113,65535,1092.25,44,0.733333,87,84
17:44:19,20875,20.875,1343,1.343,36.55,4419,4.419,5113,65535,1092.25,43,0.716667,87,84
17:44:43,20880,20.88,1344,1.344,36.55,4428,4.428,5113,65535,1092.25,43,0.716667,87,84
17:45:07,20885,20.885,1344,1.344,36.45,4437,4.437,5113,65535,1092.25,42,0.7,87,84
17:45:32,20890,20.89,1342,1.342,36.35,4446,4.446,5113,65535,1092.25,41,0.683333,87,84
17:45:56,20895,20.895,1342,1.342,36.35,4455,4.455,5113,65535,1092.25,40,0.666667,88,84
17:46:20,20900,20.9,1341,1.341,36.45,4464,4.464,5113,65535,1092.25,39,0.65,88,84
17:46:44,20905,20.905,1341,1.341,36.45,4473,4.473,5113,65535,1092.25,38,0.633333,88,84
17:47:08,20910,20.91,1340,1.34,36.45,4482,4.482,5113,65535,1092.25,37,0.616667,88,84
17:47:32,20915,20.915,1341,1.341,36.45,4491,4.491,5113,65535,1092.25,36,0.6,88,84
17:47:56,20920,20.92,1341,1.341,36.45,4500,4.5,5114,65535,1092.25,35,0.583333,88,84
17:48:21,20925,20.925,1340,1.34,36.45,4509,4.509,5114,65535,1092.25,35,0.583333,89,84
17:48:45,20930,20.93,1340,1.34,36.45,4518,4.518,5114,65535,1092.25,34,0.566667,89,84
17:49:09,20930,20.93,1339,1.339,36.45,4526,4.526,5113,65535,1092.25,33,0.55,89,84
17:49:33,20940,20.94,1339,1.339,36.55,4536,4.536,5113,65535,1092.25,32,0.533333,89,84
17:49:57,20940,20.94,1338,1.338,36.45,4545,4.545,5114,65535,1092.25,31,0.516667,89,84
17:50:21,20945,20.945,1338,1.338,36.35,4554,4.554,5114,65535,1092.25,30,0.5,90,84
17:50:46,20945,20.945,1339,1.339,36.35,4563,4.563,5114,65535,1092.25,29,0.483333,90,84
17:51:10,20950,20.95,1339,1.339,36.45,4571,4.571,5113,65535,1092.25,28,0.466667,90,84
17:51:34,20950,20.95,1338,1.338,36.55,4580,4.58,5113,65535,1092.25,27,0.45,90,84
17:51:58,20955,20.955,1338,1.338,36.55,4589,4.589,5113,65535,1092.25,27,0.45,90,84
17:52:22,20960,20.96,1337,1.337,36.55,4598,4.598,5113,65535,1092.25,26,0.433333,90,84
17:52:46,20965,20.965,1337,1.337,36.55,4607,4.607,5113,65535,1092.25,25,0.416667,91,84
17:53:10,20970,20.97,1337,1.337,36.55,4616,4.616,5113,65535,1092.25,24,0.4,91,84
17:53:35,20970,20.97,1336,1.336,36.55,4625,4.625,5113,65535,1092.25,23,0.383333,91,84
17:53:59,20980,20.98,1336,1.336,36.55,4634,4.634,5113,65535,1092.25,22,0.366667,91,84
17:54:23,20980,20.98,1335,1.335,36.45,4643,4.643,5113,65535,1092.25,21,0.35,91,84
17:54:47,20980,20.98,1319,1.319,36.55,4652,4.652,5113,65535,1092.25,20,0.333333,91,84
17:55:11,20980,20.98,1304,1.304,36.45,4661,4.661,5114,65535,1092.25,20,0.333333,92,84
17:55:35,20980,20.98,1291,1.291,36.45,4669,4.669,5113,65535,1092.25,19,0.316667,92,84
17:56:00,20980,20.98,1277,1.277,36.35,4678,4.678,5113,65535,1092.25,18,0.3,92,84
17:56:24,20980,20.98,1266,1.266,36.35,4686,4.686,5113,65535,1092.25,18,0.3,92,84
17:56:48,20985,20.985,1255,1.255,36.45,4695,4.695,5113,65535,1092.25,17,0.283333,92,84
17:57:12,20985,20.985,1243,1.243,36.35,4703,4.703,5113,65535,1092.25,16,0.266667,92,84
17:57:36,20985,20.985,1232,1.232,36.25,4711,4.711,5113,65535,1092.25,15,0.25,93,84
17:58:00,20985,20.985,1221,1.221,36.25,4720,4.72,5114,65535,1092.25,15,0.25,93,84
17:58:25,20980,20.98,1211,1.211,36.25,4728,4.728,5114,65535,1092.25,14,0.233333,93,84
17:58:49,20985,20.985,1199,1.199,36.25,4736,4.736,5114,65535,1092.25,13,0.216667,93,84
17:59:13,20985,20.985,1189,1.189,36.25,4744,4.744,5113,65535,1092.25,12,0.2,93,84
17:59:37,20985,20.985,1177,1.177,36.25,4752,4.752,5113,65535,1092.25,11,0.183333,93,84
18:00:01,20985,20.985,1166,1.166,36.25,4760,4.76,5114,65535,1092.25,11,0.183333,94,84
18:00:25,20985,20.985,1155,1.155,36.05,4767,4.767,5113,65535,1092.25,10,0.166667,94,84
18:00:49,20985,20.985,1145,1.145,35.95,4775,4.775,5113,65535,1092.25,9,0.15,94,84
18:01:14,20985,20.985,1133,1.133,35.95,4783,4.783,5114,65535,1092.25,8,0.133333,94,84
18:01:38,20985,20.985,1122,1.122,35.85,4790,4.79,5113,65535,1092.25,7,0.116667,94,84
18:02:02,20985,20.985,1111,1.111,35.75,4798,4.798,5114,65535,1092.25,6,0.1,94,84
18:02:26,20985,20.985,1100,1.1,35.75,4805,4.805,5113,65535,1092.25,6,0.1,94,84
18:02:50,20985,20.985,1089,1.089,35.75,4812,4.812,5113,65535,1092.25,5,0.0833333,95,84
18:03:14,20985,20.985,1077,1.077,35.65,4820,4.82,5113,65535,1092.25,4,0.0666667,95,84
18:03:39,20985,20.985,1066,1.066,35.65,4827,4.827,5113,65535,1092.25,3,0.05,95,84
18:04:03,20985,20.985,1054,1.054,35.55,4834,4.834,5113,65535,1092.25,2,0.0333333,95,84
18:04:27,20985,20.985,1043,1.043,35.55,4841,4.841,5113,65535,1092.25,1,0.0166667,95,84
18:04:51,20985,20.985,1031,1.031,35.55,4848,4.848,5113,65535,1092.25,1,0.0166667,95,84
18:05:15,20985,20.985,1020,1.02,35.45,4855,4.855,5114,65535,1092.25,0,0.0,95,84
18:05:39,20985,20.985,1007,1.007,35.35,4862,4.862,5113,65535,1092.25,0,0.0,96,84
18:06:03,20985,20.985,995,0.995,35.35,4868,4.868,5113,65535,1092.25,0,0.0,96,84
18:06:28,20985,20.985,985,0.985,35.25,4875,4.875,5113,65535,1092.25,0,0.0,96,84
18:06:52,20985,20.985,972,0.972,35.25,4882,4.882,5114,65535,1092.25,0,0.0,96,84
18:07:16,20990,20.99,959,0.959,35.25,4888,4.888,5113,65535,1092.25,0,0.0,96,84
18:07:40,20985,20.985,947,0.947,35.15,4894,4.894,5113,65535,1092.25,0,0.0,96,84
18:08:04,20985,20.985,937,0.937,35.25,4901,4.901,5114,65535,1092.25,0,0.0,96,84
18:08:28,20985,20.985,923,0.923,35.15,4907,4.907,5113,65535,1092.25,0,0.0,96,84
18:08:53,20985,20.985,911,0.911,35.15,4913,4.913,5113,65535,1092.25,0,0.0,97,84
18:09:17,20985,20.985,899,0.899,35.15,4919,4.919,5113,65535,1092.25,0,0.0,97,84
18:09:41,20990,20.99,886,0.886,35.15,4925,4.925,5113,65535,1092.25,0,0.0,97,84
18:10:05,20990,20.99,874,0.874,35.05,4931,4.931,5113,65535,1092.25,0,0.0,97,84
18:10:29,20990,20.99,861,0.861,34.95,4937,4.937,5113,65535,1092.25,0,0.0,97,84
18:10:53,20990,20.99,849,0.849,35.05,4943,4.943,5114,65535,1092.25,0,0.0,97,84
18:11:17,20990,20.99,837,0.837,35.05,4948,4.948,5113,65535,1092.25,0,0.0,97,84
18:11:42,20990,20.99,824,0.824,35.05,4954,4.954,5113,65535,1092.25,0,0.0,97,84
18:12:06,20990,20.99,812,0.812,35.05,4959,4.959,5113,65535,1092.25,0,0.0,97,84
18:12:30,20990,20.99,800,0.8,34.95,4965,4.965,5113,65535,1092.25,0,0.0,98,84
18:12:54,20990,20.99,787,0.787,34.95,4970,4.97,5113,65535,1092.25,0,0.0,98,84
18:13:18,20990,20.99,775,0.775,34.85,4975,4.975,5113,65535,1092.25,0,0.0,98,84
18:13:42,20990,20.99,762,0.762,34.85,4981,4.981,5114,65535,1092.25,0,0.0,98,84
18:14:07,20990,20.99,751,0.751,34.75,4986,4.986,5114,65535,1092.25,0,0.0,98,84
18:14:31,20990,20.99,738,0.738,34.65,4991,4.991,5114,65535,1092.25,0,0.0,98,84
18:14:55,20990,20.99,725,0.725,34.65,4995,4.995,5113,65535,1092.25,0,0.0,98,84
18:15:19,20990,20.99,714,0.714,34.65,5000,5.0,5113,65535,1092.25,0,0.0,98,84
18:15:43,20990,20.99,702,0.702,34.65,5005,5.005,5113,65535,1092.25,0,0.0,98,84
18:16:07,20990,20.99,690,0.69,34.65,5010,5.01,5114,65535,1092.25,0,0.0,98,84
18:16:32,20990,20.99,677,0.677,34.65,5014,5.014,5113,65535,1092.25,0,0.0,99,84
18:16:56,20990,20.99,666,0.666,34.65,5019,5.019,5113,65535,1092.25,0,0.0,99,84
18:17:20,20990,20.99,654,0.654,34.65,5023,5.023,5113,65535,1092.25,0,0.0,99,84
18:17:44,20990,20.99,641,0.641,34.55,5028,5.028,5114,65535,1092.25,0,0.0,99,84
18:18:08,20990,20.99,630,0.63,34.45,5032,5.032,5113,65535,1092.25,0,0.0,99,84
18:18:32,20995,20.995,619,0.619,34.45,5036,5.036,5113,65535,1092.25,0,0.0,99,84
18:18:56,20995,20.995,607,0.607,34.45,5040,5.04,5113,65535,1092.25,0,0.0,99,84
18:19:21,20995,20.995,596,0.596,34.35,5044,5.044,5113,65535,1092.25,0,0.0,99,84
18:19:45,20995,20.995,584,0.584,34.35,5048,5.048,5113,65535,1092.25,0,0.0,99,84
18:20:09,20995,20.995,573,0.573,34.25,5052,5.052,5113,65535,1092.25,0,0.0,99,84
18:20:33,20995,20.995,561,0.561,34.15,5056,5.056,5113,65535,1092.25,0,0.0,99,84
18:20:57,20995,20.995,550,0.55,34.15,5060,5.06,5114,65535,1092.25,0,0.0,99,84
18:21:21,20995,20.995,540,0.54,34.05,5063,5.063,5113,65535,1092.25,0,0.0,100,84
18:21:46,20995,20.995,530,0.53,33.95,5067,5.067,5114,65535,1092.25,0,0.0,100,84
18:22:10,20995,20.995,518,0.518,33.95,5070,5.07,5113,65535,1092.25,0,0.0,100,84
18:22:34,20995,20.995,508,0.508,33.95,5074,5.074,5113,65535,1092.25,0,0.0,100,84
18:22:58,20995,20.995,497,0.497,34.05,5077,5.077,5113,65535,1092.25,0,0.0,100,84
18:23:22,20995,20.995,488,0.488,34.05,5080,5.08,5113,65535,1092.25,0,0.0,100,84
18:23:46,20995,20.995,477,0.477,34.15,5084,5.084,5114,65535,1092.25,0,0.0,100,84
18:24:10,20995,20.995,467,0.467,34.15,5087,5.087,5113,65535,1092.25,0,0.0,100,84
18:24:35,20995,20.995,458,0.458,34.15,5090,5.09,5113,65535,1092.25,0,0.0,100,84
18:24:59,20995,20.995,448,0.448,34.15,5093,5.093,5113,65535,1092.25,0,0.0,100,84
18:25:23,20995,20.995,439,0.439,34.25,5096,5.096,5113,65535,1092.25,0,0.0,100,84
18:25:47,20995,20.995,429,0.429,34.35,5099,5.099,5113,65535,1092.25,0,0.0,100,84
18:26:11,20995,20.995,420,0.42,34.25,5102,5.102,5114,65535,1092.25,0,0.0,100,84
18:26:35,20995,20.995,412,0.412,34.15,5104,5.104,5113,65535,1092.25,0,0.0,100,84
18:27:00,20995,20.995,402,0.402,34.15,5107,5.107,5113,65535,1092.25,0,0.0,100,84
18:27:24,20995,20.995,395,0.395,34.05,5110,5.11,5113,65535,1092.25,0,0.0,100,84
18:27:48,20995,20.995,386,0.386,33.95,5112,5.112,5113,65535,1092.25,0,0.0,100,84
18:28:12,20995,20.995,379,0.379,33.85,5113,5.113,5113,65535,1092.25,0,0.0,100,84
18:28:36,20995,20.995,370,0.37,33.85,5113,5.113,5113,65535,1092.25,0,0.0,100,84
18:28:58,20995,20.995,362,0.362,33.95,5113,5.113,5113,65535,1092.25,0,0.0,100,84